TITLE	
DATA TYPE	
ORIGIN	JASCO
OWNER	
DATE	97/10/31
TIME	20:07:40
SPECTROMETER/DATA SYSTEM	JASCO Corp., V-550, Rev. 1.00
RESOLUTION	
DELTAX	0.5
XUNITS	SEC
YUNITS	ABSORBANCE
FIRSTX	0.0000
LASTX	400.0000
NPOINTS	801
FIRSTY	0.00006
MAXY	0.98614
MINY	-0.00002
XYDATA
0.0000	6E-05
0.5000	1E-05
1.0000	-2E-05
1.5000	8E-05
2.0000	1.2E-04
2.5000	1.3E-04
3.0000	8E-05
3.5000	1.4E-04
4.0000	2E-04
4.5000	1.6E-04
5.0000	1.5E-04
5.5000	1.4E-04
6.0000	9E-05
6.5000	1.6E-04
7.0000	2.2E-04
7.5000	1.9E-04
8.0000	1.9E-04
8.5000	1.4E-04
9.0000	1.5E-04
9.5000	2E-04
10.0000	2.9E-04
10.5000	3.6E-04
11.0000	0.01764
11.5000	0.05707
12.0000	0.10673
12.5000	0.15381
13.0000	0.19522
13.5000	0.23676
14.0000	0.27592
14.5000	0.31076
15.0000	0.34615
15.5000	0.37953
16.0000	0.40906
16.5000	0.43902
17.0000	0.46594
17.5000	0.49333
18.0000	0.51965
18.5000	0.5431
19.0000	0.56645
19.5000	0.58845
20.0000	0.60861
20.5000	0.62919
21.0000	0.64782
21.5000	0.66452
22.0000	0.68255
22.5000	0.6996
23.0000	0.71498
23.5000	0.73066
24.0000	0.74383
24.5000	0.75723
25.0000	0.76999
25.5000	0.78201
26.0000	0.79452
26.5000	0.80609
27.0000	0.81607
27.5000	0.82621
28.0000	0.83642
28.5000	0.84583
29.0000	0.85514
29.5000	0.8639
30.0000	0.87179
30.5000	0.88026
31.0000	0.88781
31.5000	0.89473
32.0000	0.90118
32.5000	0.90795
33.0000	0.91511
33.5000	0.9215
34.0000	0.927
34.5000	0.93243
35.0000	0.93765
35.5000	0.94292
36.0000	0.94789
36.5000	0.95274
37.0000	0.95758
37.5000	0.96208
38.0000	0.96605
38.5000	0.97026
39.0000	0.97402
39.5000	0.97775
40.0000	0.98151
40.5000	0.98444
41.0000	0.98614
41.5000	0.98046
42.0000	0.96671
42.5000	0.95275
43.0000	0.93721
43.5000	0.92156
44.0000	0.90704
44.5000	0.8916
45.0000	0.8773
45.5000	0.8628
46.0000	0.84831
46.5000	0.83464
47.0000	0.82079
47.5000	0.8072
48.0000	0.7946
48.5000	0.78132
49.0000	0.76875
49.5000	0.75703
50.0000	0.74455
50.5000	0.73246
51.0000	0.7212
51.5000	0.7094
52.0000	0.69867
52.5000	0.68747
53.0000	0.67663
53.5000	0.66642
54.0000	0.65562
54.5000	0.64525
55.0000	0.63585
55.5000	0.62587
56.0000	0.61601
56.5000	0.60715
57.0000	0.59777
57.5000	0.58848
58.0000	0.57991
58.5000	0.57094
59.0000	0.56284
59.5000	0.55421
60.0000	0.54588
60.5000	0.53815
61.0000	0.5299
61.5000	0.52193
62.0000	0.51477
62.5000	0.50722
63.0000	0.49975
63.5000	0.49299
64.0000	0.48575
64.5000	0.4787
65.0000	0.4724
65.5000	0.46564
66.0000	0.4594
66.5000	0.45287
67.0000	0.44641
67.5000	0.44045
68.0000	0.43446
68.5000	0.42837
69.0000	0.42269
69.5000	0.41691
70.0000	0.41136
70.5000	0.40611
71.0000	0.40062
71.5000	0.39536
72.0000	0.39047
72.5000	0.38536
73.0000	0.38051
73.5000	0.37546
74.0000	0.37059
74.5000	0.36611
75.0000	0.36151
75.5000	0.35694
76.0000	0.35258
76.5000	0.34805
77.0000	0.34375
77.5000	0.33977
78.0000	0.33561
78.5000	0.33149
79.0000	0.32783
79.5000	0.32404
80.0000	0.3204
80.5000	0.31648
81.0000	0.31286
81.5000	0.30959
82.0000	0.3059
82.5000	0.30243
83.0000	0.29919
83.5000	0.29585
84.0000	0.29253
84.5000	0.28945
85.0000	0.28629
85.5000	0.28316
86.0000	0.28045
86.5000	0.2775
87.0000	0.27451
87.5000	0.27181
88.0000	0.26886
88.5000	0.26608
89.0000	0.26341
89.5000	0.2607
90.0000	0.25823
90.5000	0.25578
91.0000	0.2533
91.5000	0.25097
92.0000	0.24847
92.5000	0.24608
93.0000	0.24407
93.5000	0.24184
94.0000	0.23958
94.5000	0.23751
95.0000	0.23526
95.5000	0.23333
96.0000	0.23135
96.5000	0.22935
97.0000	0.22741
97.5000	0.2254
98.0000	0.22352
98.5000	0.2217
99.0000	0.2199
99.5000	0.21794
100.0000	0.2162
100.5000	0.21467
101.0000	0.21302
101.5000	0.21155
102.0000	0.2099
102.5000	0.20826
103.0000	0.20659
103.5000	0.20508
104.0000	0.20377
104.5000	0.20231
105.0000	0.20086
105.5000	0.19937
106.0000	0.1979
106.5000	0.1967
107.0000	0.19542
107.5000	0.19405
108.0000	0.19275
108.5000	0.19155
109.0000	0.19031
109.5000	0.18909
110.0000	0.18794
110.5000	0.18685
111.0000	0.18576
111.5000	0.18457
112.0000	0.18335
112.5000	0.18231
113.0000	0.18125
113.5000	0.18022
114.0000	0.17933
114.5000	0.17835
115.0000	0.17746
115.5000	0.17663
116.0000	0.1755
116.5000	0.17454
117.0000	0.17368
117.5000	0.17287
118.0000	0.17204
118.5000	0.17106
119.0000	0.17012
119.5000	0.16945
120.0000	0.16874
120.5000	0.16793
121.0000	0.16722
121.5000	0.16652
122.0000	0.16564
122.5000	0.16495
123.0000	0.16422
123.5000	0.16347
124.0000	0.16284
124.5000	0.16216
125.0000	0.1616
125.5000	0.16096
126.0000	0.16026
126.5000	0.15974
127.0000	0.15915
127.5000	0.15861
128.0000	0.15801
128.5000	0.15733
129.0000	0.15674
129.5000	0.15613
130.0000	0.15561
130.5000	0.1551
131.0000	0.15456
131.5000	0.154
132.0000	0.15356
132.5000	0.15312
133.0000	0.15266
133.5000	0.1522
134.0000	0.15165
134.5000	0.15114
135.0000	0.15074
135.5000	0.15033
136.0000	0.14974
136.5000	0.14925
137.0000	0.14887
137.5000	0.14862
138.0000	0.14839
138.5000	0.14795
139.0000	0.14752
139.5000	0.14715
140.0000	0.14673
140.5000	0.14632
141.0000	0.146
141.5000	0.14563
142.0000	0.14533
142.5000	0.14505
143.0000	0.14473
143.5000	0.14436
144.0000	0.14411
144.5000	0.14392
145.0000	0.14361
145.5000	0.14323
146.0000	0.14291
146.5000	0.1426
147.0000	0.14232
147.5000	0.14196
148.0000	0.14169
148.5000	0.14145
149.0000	0.14114
149.5000	0.14096
150.0000	0.1408
150.5000	0.14064
151.0000	0.14042
151.5000	0.14017
152.0000	0.14003
152.5000	0.13982
153.0000	0.13945
153.5000	0.13915
154.0000	0.13901
154.5000	0.13877
155.0000	0.13853
155.5000	0.13826
156.0000	0.13817
156.5000	0.13796
157.0000	0.13769
157.5000	0.13754
158.0000	0.13742
158.5000	0.13721
159.0000	0.13706
159.5000	0.13697
160.0000	0.13674
160.5000	0.13649
161.0000	0.13639
161.5000	0.1363
162.0000	0.1361
162.5000	0.1359
163.0000	0.13575
163.5000	0.13552
164.0000	0.13542
164.5000	0.13528
165.0000	0.13514
165.5000	0.13505
166.0000	0.13498
166.5000	0.13483
167.0000	0.13468
167.5000	0.13452
168.0000	0.13439
168.5000	0.1343
169.0000	0.13415
169.5000	0.13403
170.0000	0.13392
170.5000	0.13379
171.0000	0.13368
171.5000	0.1337
172.0000	0.13364
172.5000	0.13342
173.0000	0.1334
173.5000	0.13335
174.0000	0.13324
174.5000	0.13317
175.0000	0.13296
175.5000	0.13282
176.0000	0.13277
176.5000	0.13266
177.0000	0.13265
177.5000	0.13254
178.0000	0.13239
178.5000	0.1323
179.0000	0.13223
179.5000	0.1322
180.0000	0.13215
180.5000	0.13209
181.0000	0.13197
181.5000	0.13181
182.0000	0.13179
182.5000	0.13183
183.0000	0.13173
183.5000	0.13156
184.0000	0.1315
184.5000	0.1314
185.0000	0.13125
185.5000	0.13127
186.0000	0.13124
186.5000	0.13121
187.0000	0.13116
187.5000	0.13106
188.0000	0.131
188.5000	0.13095
189.0000	0.13092
189.5000	0.13095
190.0000	0.13093
190.5000	0.13086
191.0000	0.13083
191.5000	0.1308
192.0000	0.13071
192.5000	0.13056
193.0000	0.13051
193.5000	0.13042
194.0000	0.13035
194.5000	0.13024
195.0000	0.13014
195.5000	0.1302
196.0000	0.13019
196.5000	0.13016
197.0000	0.1302
197.5000	0.13016
198.0000	0.13002
198.5000	0.13003
199.0000	0.12994
199.5000	0.12989
200.0000	0.12988
200.5000	0.12979
201.0000	0.12981
201.5000	0.12997
202.0000	0.13
202.5000	0.12989
203.0000	0.12965
203.5000	0.12963
204.0000	0.12963
204.5000	0.12964
205.0000	0.12964
205.5000	0.12958
206.0000	0.12948
206.5000	0.12935
207.0000	0.1294
207.5000	0.12945
208.0000	0.12934
208.5000	0.12929
209.0000	0.12943
209.5000	0.1294
210.0000	0.12918
210.5000	0.12923
211.0000	0.12933
211.5000	0.12929
212.0000	0.12927
212.5000	0.12924
213.0000	0.12929
213.5000	0.12926
214.0000	0.12917
214.5000	0.12914
215.0000	0.1291
215.5000	0.12913
216.0000	0.1292
216.5000	0.1291
217.0000	0.12904
217.5000	0.12905
218.0000	0.1289
218.5000	0.12883
219.0000	0.12892
219.5000	0.12891
220.0000	0.12896
220.5000	0.12897
221.0000	0.12895
221.5000	0.12901
222.0000	0.12887
222.5000	0.12874
223.0000	0.12875
223.5000	0.12875
224.0000	0.12871
224.5000	0.12873
225.0000	0.1288
225.5000	0.12881
226.0000	0.12871
226.5000	0.12873
227.0000	0.12886
227.5000	0.12881
228.0000	0.12878
228.5000	0.12877
229.0000	0.12876
229.5000	0.12886
230.0000	0.12873
230.5000	0.12856
231.0000	0.12867
231.5000	0.12868
232.0000	0.12867
232.5000	0.12859
233.0000	0.12849
233.5000	0.12856
234.0000	0.1287
234.5000	0.12866
235.0000	0.12858
235.5000	0.1286
236.0000	0.1286
236.5000	0.12861
237.0000	0.12858
237.5000	0.12852
238.0000	0.12841
238.5000	0.12845
239.0000	0.12852
239.5000	0.12848
240.0000	0.12844
240.5000	0.12843
241.0000	0.12841
241.5000	0.12848
242.0000	0.12847
242.5000	0.12845
243.0000	0.12842
243.5000	0.12841
244.0000	0.12841
244.5000	0.12846
245.0000	0.12844
245.5000	0.12845
246.0000	0.12827
246.5000	0.1282
247.0000	0.12827
247.5000	0.12828
248.0000	0.12836
248.5000	0.12845
249.0000	0.12851
249.5000	0.12839
250.0000	0.12825
250.5000	0.12817
251.0000	0.12825
251.5000	0.12835
252.0000	0.12832
252.5000	0.12826
253.0000	0.12824
253.5000	0.12815
254.0000	0.12811
254.5000	0.12829
255.0000	0.12829
255.5000	0.12825
256.0000	0.12815
256.5000	0.1281
257.0000	0.12823
257.5000	0.1283
258.0000	0.12834
258.5000	0.12845
259.0000	0.12837
259.5000	0.12834
260.0000	0.12835
260.5000	0.12828
261.0000	0.12833
261.5000	0.12834
262.0000	0.12835
262.5000	0.12827
263.0000	0.12822
263.5000	0.12822
264.0000	0.12818
264.5000	0.1282
265.0000	0.12821
265.5000	0.12819
266.0000	0.12818
266.5000	0.12826
267.0000	0.12832
267.5000	0.12825
268.0000	0.1281
268.5000	0.12812
269.0000	0.12828
269.5000	0.12828
270.0000	0.12821
270.5000	0.12819
271.0000	0.12819
271.5000	0.12812
272.0000	0.12822
272.5000	0.12829
273.0000	0.12828
273.5000	0.1282
274.0000	0.12813
274.5000	0.12821
275.0000	0.12825
275.5000	0.12815
276.0000	0.12815
276.5000	0.12814
277.0000	0.1281
277.5000	0.12803
278.0000	0.12797
278.5000	0.12801
279.0000	0.12813
279.5000	0.12822
280.0000	0.12813
280.5000	0.12807
281.0000	0.12817
281.5000	0.12818
282.0000	0.12801
282.5000	0.12806
283.0000	0.1282
283.5000	0.12819
284.0000	0.12824
284.5000	0.12824
285.0000	0.12827
285.5000	0.12831
286.0000	0.12812
286.5000	0.12804
287.0000	0.128
287.5000	0.12805
288.0000	0.12814
288.5000	0.12805
289.0000	0.12811
289.5000	0.12828
290.0000	0.12822
290.5000	0.12821
291.0000	0.12812
291.5000	0.12812
292.0000	0.12809
292.5000	0.12798
293.0000	0.12805
293.5000	0.12807
294.0000	0.12816
294.5000	0.12816
295.0000	0.12807
295.5000	0.12824
296.0000	0.12826
296.5000	0.12815
297.0000	0.12811
297.5000	0.1281
298.0000	0.1281
298.5000	0.12807
299.0000	0.12813
299.5000	0.12804
300.0000	0.12795
300.5000	0.12802
301.0000	0.12803
301.5000	0.12797
302.0000	0.12804
302.5000	0.12807
303.0000	0.12793
303.5000	0.1279
304.0000	0.12789
304.5000	0.12794
305.0000	0.12791
305.5000	0.12789
306.0000	0.12789
306.5000	0.12799
307.0000	0.12807
307.5000	0.12806
308.0000	0.12807
308.5000	0.12799
309.0000	0.12794
309.5000	0.12797
310.0000	0.12804
310.5000	0.12807
311.0000	0.12793
311.5000	0.1279
312.0000	0.12794
312.5000	0.12799
313.0000	0.12802
313.5000	0.12805
314.0000	0.12819
314.5000	0.12815
315.0000	0.12802
315.5000	0.12804
316.0000	0.12799
316.5000	0.128
317.0000	0.12795
317.5000	0.12807
318.0000	0.12821
318.5000	0.12812
319.0000	0.12799
319.5000	0.12797
320.0000	0.12804
320.5000	0.12809
321.0000	0.12809
321.5000	0.12805
322.0000	0.12802
322.5000	0.128
323.0000	0.12803
323.5000	0.12803
324.0000	0.12801
324.5000	0.12805
325.0000	0.12809
325.5000	0.1281
326.0000	0.12803
326.5000	0.12806
327.0000	0.12798
327.5000	0.12797
328.0000	0.12798
328.5000	0.12788
329.0000	0.12804
329.5000	0.12803
330.0000	0.12796
330.5000	0.12805
331.0000	0.12812
331.5000	0.12809
332.0000	0.12806
332.5000	0.12803
333.0000	0.12802
333.5000	0.1281
334.0000	0.12801
334.5000	0.12785
335.0000	0.12794
335.5000	0.12801
336.0000	0.12808
336.5000	0.12807
337.0000	0.12791
337.5000	0.1279
338.0000	0.12798
338.5000	0.12805
339.0000	0.12801
339.5000	0.12795
340.0000	0.12795
340.5000	0.12794
341.0000	0.12796
341.5000	0.12802
342.0000	0.12801
342.5000	0.12803
343.0000	0.12818
343.5000	0.12818
344.0000	0.12807
344.5000	0.12803
345.0000	0.12798
345.5000	0.12792
346.0000	0.12789
346.5000	0.12796
347.0000	0.12806
347.5000	0.12806
348.0000	0.12799
348.5000	0.12794
349.0000	0.12788
349.5000	0.12796
350.0000	0.12799
350.5000	0.12794
351.0000	0.12795
351.5000	0.12786
352.0000	0.1279
352.5000	0.12795
353.0000	0.12801
353.5000	0.12803
354.0000	0.12797
354.5000	0.12797
355.0000	0.12795
355.5000	0.128
356.0000	0.12802
356.5000	0.12802
357.0000	0.128
357.5000	0.12804
358.0000	0.12803
358.5000	0.128
359.0000	0.12807
359.5000	0.12801
360.0000	0.1279
360.5000	0.12788
361.0000	0.1279
361.5000	0.12798
362.0000	0.12796
362.5000	0.12803
363.0000	0.12803
363.5000	0.12799
364.0000	0.12793
364.5000	0.12797
365.0000	0.12801
365.5000	0.1279
366.0000	0.12802
366.5000	0.12805
367.0000	0.12789
367.5000	0.12797
368.0000	0.12799
368.5000	0.12786
369.0000	0.12786
369.5000	0.12792
370.0000	0.12788
370.5000	0.12789
371.0000	0.12799
371.5000	0.12803
372.0000	0.12803
372.5000	0.12802
373.0000	0.12793
373.5000	0.12786
374.0000	0.12795
374.5000	0.12806
375.0000	0.12798
375.5000	0.12786
376.0000	0.12795
376.5000	0.12804
377.0000	0.12793
377.5000	0.12788
378.0000	0.12798
378.5000	0.1281
379.0000	0.12798
379.5000	0.12782
380.0000	0.12792
380.5000	0.12812
381.0000	0.12812
381.5000	0.12803
382.0000	0.12789
382.5000	0.12787
383.0000	0.12791
383.5000	0.12799
384.0000	0.12806
384.5000	0.12809
385.0000	0.12809
385.5000	0.12805
386.0000	0.12797
386.5000	0.12792
387.0000	0.12789
387.5000	0.12787
388.0000	0.12784
388.5000	0.12793
389.0000	0.12789
389.5000	0.12779
390.0000	0.12786
390.5000	0.12781
391.0000	0.12777
391.5000	0.12783
392.0000	0.12781
392.5000	0.12787
393.0000	0.12788
393.5000	0.12784
394.0000	0.12785
394.5000	0.12789
395.0000	0.12791
395.5000	0.12787
396.0000	0.12791
396.5000	0.12801
397.0000	0.12796
397.5000	0.12798
398.0000	0.128
398.5000	0.12788
399.0000	0.12786
399.5000	0.12784
400.0000	0.12791
